DATATYPE	 IR Spectrum
XYUNITS	 Wavenumber;PercentTransmittance
DECIMALSYMBOL	 .
550.00	 97.77
551.00	 97.78
552.00	 97.66
553.00	 97.55
554.00	 97.64
555.00	 97.77
556.00	 97.78
557.00	 97.76
558.00	 97.85
559.00	 97.92
560.00	 97.83
561.00	 97.72
562.00	 97.72
563.00	 97.73
564.00	 97.62
565.00	 97.52
566.00	 97.56
567.00	 97.66
568.00	 97.68
569.00	 97.71
570.00	 97.83
571.00	 97.92
572.00	 97.84
573.00	 97.72
574.00	 97.73
575.00	 97.81
576.00	 97.82
577.00	 97.78
578.00	 97.76
579.00	 97.70
580.00	 97.56
581.00	 97.48
582.00	 97.56
583.00	 97.67
584.00	 97.67
585.00	 97.64
586.00	 97.66
587.00	 97.64
588.00	 97.53
589.00	 97.44
590.00	 97.51
591.00	 97.65
592.00	 97.70
593.00	 97.66
594.00	 97.63
595.00	 97.62
596.00	 97.58
597.00	 97.54
598.00	 97.53
599.00	 97.54
600.00	 97.51
601.00	 97.49
602.00	 97.52
603.00	 97.54
604.00	 97.50
605.00	 97.47
606.00	 97.52
607.00	 97.59
608.00	 97.59
609.00	 97.58
610.00	 97.61
611.00	 97.63
612.00	 97.58
613.00	 97.52
614.00	 97.54
615.00	 97.59
616.00	 97.63
617.00	 97.64
618.00	 97.66
619.00	 97.64
620.00	 97.55
621.00	 97.48
622.00	 97.50
623.00	 97.55
624.00	 97.54
625.00	 97.52
626.00	 97.54
627.00	 97.59
628.00	 97.61
629.00	 97.61
630.00	 97.63
631.00	 97.64
632.00	 97.60
633.00	 97.55
634.00	 97.56
635.00	 97.60
636.00	 97.60
637.00	 97.59
638.00	 97.59
639.00	 97.58
640.00	 97.55
641.00	 97.54
642.00	 97.57
643.00	 97.59
644.00	 97.58
645.00	 97.55
646.00	 97.57
647.00	 97.60
648.00	 97.60
649.00	 97.58
650.00	 97.59
651.00	 97.58
652.00	 97.55
653.00	 97.51
654.00	 97.51
655.00	 97.54
656.00	 97.54
657.00	 97.53
658.00	 97.54
659.00	 97.53
660.00	 97.49
661.00	 97.44
662.00	 97.44
663.00	 97.47
664.00	 97.48
665.00	 97.47
666.00	 97.44
667.00	 97.42
668.00	 97.41
669.00	 97.40
670.00	 97.41
671.00	 97.43
672.00	 97.41
673.00	 97.38
674.00	 97.38
675.00	 97.42
676.00	 97.43
677.00	 97.41
678.00	 97.39
679.00	 97.35
680.00	 97.29
681.00	 97.23
682.00	 97.22
683.00	 97.22
684.00	 97.20
685.00	 97.17
686.00	 97.14
687.00	 97.11
688.00	 97.05
689.00	 96.98
690.00	 96.94
691.00	 96.91
692.00	 96.88
693.00	 96.85
694.00	 96.84
695.00	 96.81
696.00	 96.75
697.00	 96.66
698.00	 96.60
699.00	 96.54
700.00	 96.45
701.00	 96.33
702.00	 96.21
703.00	 96.06
704.00	 95.87
705.00	 95.63
706.00	 95.40
707.00	 95.15
708.00	 94.84
709.00	 94.46
710.00	 93.99
711.00	 93.41
712.00	 92.64
713.00	 91.59
714.00	 90.23
715.00	 88.53
716.00	 86.50
717.00	 84.38
718.00	 82.70
719.00	 82.13
720.00	 83.06
721.00	 85.19
722.00	 87.70
723.00	 89.79
724.00	 91.09
725.00	 91.65
726.00	 91.59
727.00	 90.88
728.00	 89.57
729.00	 88.04
730.00	 87.06
731.00	 87.32
732.00	 88.89
733.00	 91.21
734.00	 93.44
735.00	 95.04
736.00	 95.96
737.00	 96.46
738.00	 96.76
739.00	 96.96
740.00	 97.10
741.00	 97.20
742.00	 97.29
743.00	 97.36
744.00	 97.39
745.00	 97.42
746.00	 97.46
747.00	 97.49
748.00	 97.51
749.00	 97.55
750.00	 97.59
751.00	 97.61
752.00	 97.61
753.00	 97.62
754.00	 97.64
755.00	 97.65
756.00	 97.64
757.00	 97.65
758.00	 97.68
759.00	 97.70
760.00	 97.70
761.00	 97.68
762.00	 97.67
763.00	 97.67
764.00	 97.67
765.00	 97.68
766.00	 97.70
767.00	 97.72
768.00	 97.72
769.00	 97.71
770.00	 97.70
771.00	 97.70
772.00	 97.69
773.00	 97.70
774.00	 97.73
775.00	 97.74
776.00	 97.72
777.00	 97.69
778.00	 97.67
779.00	 97.68
780.00	 97.68
781.00	 97.69
782.00	 97.70
783.00	 97.71
784.00	 97.70
785.00	 97.69
786.00	 97.68
787.00	 97.65
788.00	 97.61
789.00	 97.58
790.00	 97.58
791.00	 97.59
792.00	 97.57
793.00	 97.53
794.00	 97.50
795.00	 97.47
796.00	 97.44
797.00	 97.42
798.00	 97.41
799.00	 97.40
800.00	 97.39
801.00	 97.38
802.00	 97.40
803.00	 97.42
804.00	 97.43
805.00	 97.43
806.00	 97.45
807.00	 97.45
808.00	 97.45
809.00	 97.45
810.00	 97.48
811.00	 97.51
812.00	 97.52
813.00	 97.51
814.00	 97.51
815.00	 97.52
816.00	 97.53
817.00	 97.54
818.00	 97.57
819.00	 97.60
820.00	 97.61
821.00	 97.63
822.00	 97.65
823.00	 97.67
824.00	 97.67
825.00	 97.68
826.00	 97.72
827.00	 97.75
828.00	 97.78
829.00	 97.80
830.00	 97.83
831.00	 97.85
832.00	 97.85
833.00	 97.85
834.00	 97.85
835.00	 97.87
836.00	 97.88
837.00	 97.89
838.00	 97.91
839.00	 97.92
840.00	 97.91
841.00	 97.91
842.00	 97.92
843.00	 97.93
844.00	 97.93
845.00	 97.93
846.00	 97.95
847.00	 97.97
848.00	 97.97
849.00	 97.97
850.00	 97.97
851.00	 97.96
852.00	 97.94
853.00	 97.92
854.00	 97.91
855.00	 97.92
856.00	 97.93
857.00	 97.93
858.00	 97.94
859.00	 97.95
860.00	 97.95
861.00	 97.96
862.00	 97.96
863.00	 97.96
864.00	 97.95
865.00	 97.93
866.00	 97.92
867.00	 97.92
868.00	 97.92
869.00	 97.93
870.00	 97.94
871.00	 97.96
872.00	 97.96
873.00	 97.95
874.00	 97.96
875.00	 97.97
876.00	 97.97
877.00	 97.97
878.00	 97.98
879.00	 97.99
880.00	 97.99
881.00	 97.99
882.00	 97.98
883.00	 97.98
884.00	 97.97
885.00	 97.97
886.00	 97.97
887.00	 97.97
888.00	 97.97
889.00	 97.98
890.00	 97.99
891.00	 98.01
892.00	 98.01
893.00	 98.02
894.00	 98.02
895.00	 98.03
896.00	 98.02
897.00	 98.02
898.00	 98.02
899.00	 98.02
900.00	 98.02
901.00	 98.02
902.00	 98.03
903.00	 98.05
904.00	 98.05
905.00	 98.04
906.00	 98.03
907.00	 98.03
908.00	 98.01
909.00	 98.01
910.00	 98.03
911.00	 98.04
912.00	 98.05
913.00	 98.04
914.00	 98.04
915.00	 98.03
916.00	 98.03
917.00	 98.02
918.00	 98.02
919.00	 98.03
920.00	 98.02
921.00	 98.02
922.00	 98.02
923.00	 98.02
924.00	 98.02
925.00	 98.01
926.00	 98.01
927.00	 98.01
928.00	 98.01
929.00	 98.02
930.00	 98.02
931.00	 98.03
932.00	 98.01
933.00	 98.00
934.00	 98.00
935.00	 98.01
936.00	 98.01
937.00	 98.02
938.00	 98.03
939.00	 98.04
940.00	 98.04
941.00	 98.03
942.00	 98.04
943.00	 98.04
944.00	 98.04
945.00	 98.03
946.00	 98.03
947.00	 98.03
948.00	 98.02
949.00	 98.00
950.00	 97.99
951.00	 97.99
952.00	 97.98
953.00	 97.97
954.00	 97.97
955.00	 97.96
956.00	 97.95
957.00	 97.94
958.00	 97.94
959.00	 97.93
960.00	 97.92
961.00	 97.91
962.00	 97.91
963.00	 97.92
964.00	 97.92
965.00	 97.92
966.00	 97.92
967.00	 97.92
968.00	 97.92
969.00	 97.90
970.00	 97.91
971.00	 97.91
972.00	 97.92
973.00	 97.92
974.00	 97.93
975.00	 97.95
976.00	 97.96
977.00	 97.96
978.00	 97.96
979.00	 97.96
980.00	 97.95
981.00	 97.94
982.00	 97.93
983.00	 97.93
984.00	 97.93
985.00	 97.92
986.00	 97.92
987.00	 97.92
988.00	 97.90
989.00	 97.88
990.00	 97.86
991.00	 97.85
992.00	 97.83
993.00	 97.83
994.00	 97.83
995.00	 97.83
996.00	 97.82
997.00	 97.82
998.00	 97.81
999.00	 97.81
1000.00	 97.79
1001.00	 97.78
1002.00	 97.76
1003.00	 97.74
1004.00	 97.71
1005.00	 97.68
1006.00	 97.66
1007.00	 97.64
1008.00	 97.62
1009.00	 97.60
1010.00	 97.57
1011.00	 97.55
1012.00	 97.51
1013.00	 97.48
1014.00	 97.47
1015.00	 97.45
1016.00	 97.44
1017.00	 97.42
1018.00	 97.41
1019.00	 97.39
1020.00	 97.37
1021.00	 97.35
1022.00	 97.35
1023.00	 97.35
1024.00	 97.34
1025.00	 97.34
1026.00	 97.34
1027.00	 97.34
1028.00	 97.33
1029.00	 97.32
1030.00	 97.33
1031.00	 97.34
1032.00	 97.33
1033.00	 97.32
1034.00	 97.31
1035.00	 97.30
1036.00	 97.29
1037.00	 97.29
1038.00	 97.29
1039.00	 97.30
1040.00	 97.30
1041.00	 97.29
1042.00	 97.29
1043.00	 97.30
1044.00	 97.31
1045.00	 97.31
1046.00	 97.31
1047.00	 97.31
1048.00	 97.30
1049.00	 97.28
1050.00	 97.26
1051.00	 97.25
1052.00	 97.25
1053.00	 97.26
1054.00	 97.28
1055.00	 97.30
1056.00	 97.30
1057.00	 97.30
1058.00	 97.29
1059.00	 97.28
1060.00	 97.26
1061.00	 97.25
1062.00	 97.25
1063.00	 97.25
1064.00	 97.24
1065.00	 97.23
1066.00	 97.23
1067.00	 97.22
1068.00	 97.22
1069.00	 97.22
1070.00	 97.22
1071.00	 97.23
1072.00	 97.22
1073.00	 97.21
1074.00	 97.19
1075.00	 97.17
1076.00	 97.15
1077.00	 97.13
1078.00	 97.12
1079.00	 97.10
1080.00	 97.07
1081.00	 97.05
1082.00	 97.04
1083.00	 97.04
1084.00	 97.04
1085.00	 97.05
1086.00	 97.06
1087.00	 97.07
1088.00	 97.07
1089.00	 97.07
1090.00	 97.07
1091.00	 97.07
1092.00	 97.07
1093.00	 97.06
1094.00	 97.07
1095.00	 97.07
1096.00	 97.05
1097.00	 97.04
1098.00	 97.03
1099.00	 97.02
1100.00	 97.03
1101.00	 97.03
1102.00	 97.05
1103.00	 97.06
1104.00	 97.08
1105.00	 97.08
1106.00	 97.09
1107.00	 97.10
1108.00	 97.10
1109.00	 97.10
1110.00	 97.11
1111.00	 97.12
1112.00	 97.13
1113.00	 97.15
1114.00	 97.18
1115.00	 97.20
1116.00	 97.20
1117.00	 97.17
1118.00	 97.16
1119.00	 97.17
1120.00	 97.21
1121.00	 97.25
1122.00	 97.29
1123.00	 97.32
1124.00	 97.32
1125.00	 97.33
1126.00	 97.33
1127.00	 97.34
1128.00	 97.35
1129.00	 97.37
1130.00	 97.39
1131.00	 97.41
1132.00	 97.42
1133.00	 97.43
1134.00	 97.45
1135.00	 97.48
1136.00	 97.51
1137.00	 97.53
1138.00	 97.54
1139.00	 97.55
1140.00	 97.54
1141.00	 97.54
1142.00	 97.54
1143.00	 97.56
1144.00	 97.57
1145.00	 97.59
1146.00	 97.61
1147.00	 97.62
1148.00	 97.62
1149.00	 97.62
1150.00	 97.62
1151.00	 97.62
1152.00	 97.63
1153.00	 97.64
1154.00	 97.65
1155.00	 97.65
1156.00	 97.65
1157.00	 97.65
1158.00	 97.65
1159.00	 97.65
1160.00	 97.66
1161.00	 97.66
1162.00	 97.66
1163.00	 97.67
1164.00	 97.67
1165.00	 97.67
1166.00	 97.67
1167.00	 97.68
1168.00	 97.68
1169.00	 97.68
1170.00	 97.68
1171.00	 97.69
1172.00	 97.69
1173.00	 97.69
1174.00	 97.69
1175.00	 97.68
1176.00	 97.67
1177.00	 97.66
1178.00	 97.68
1179.00	 97.70
1180.00	 97.72
1181.00	 97.73
1182.00	 97.75
1183.00	 97.76
1184.00	 97.76
1185.00	 97.75
1186.00	 97.76
1187.00	 97.77
1188.00	 97.77
1189.00	 97.77
1190.00	 97.76
1191.00	 97.76
1192.00	 97.77
1193.00	 97.78
1194.00	 97.80
1195.00	 97.81
1196.00	 97.82
1197.00	 97.82
1198.00	 97.83
1199.00	 97.84
1200.00	 97.84
1201.00	 97.83
1202.00	 97.82
1203.00	 97.82
1204.00	 97.83
1205.00	 97.83
1206.00	 97.84
1207.00	 97.85
1208.00	 97.85
1209.00	 97.84
1210.00	 97.84
1211.00	 97.84
1212.00	 97.83
1213.00	 97.82
1214.00	 97.82
1215.00	 97.83
1216.00	 97.83
1217.00	 97.84
1218.00	 97.84
1219.00	 97.84
1220.00	 97.84
1221.00	 97.84
1222.00	 97.84
1223.00	 97.84
1224.00	 97.84
1225.00	 97.84
1226.00	 97.84
1227.00	 97.84
1228.00	 97.83
1229.00	 97.82
1230.00	 97.81
1231.00	 97.82
1232.00	 97.82
1233.00	 97.82
1234.00	 97.82
1235.00	 97.81
1236.00	 97.81
1237.00	 97.80
1238.00	 97.80
1239.00	 97.80
1240.00	 97.79
1241.00	 97.78
1242.00	 97.78
1243.00	 97.78
1244.00	 97.77
1245.00	 97.76
1246.00	 97.75
1247.00	 97.73
1248.00	 97.72
1249.00	 97.71
1250.00	 97.70
1251.00	 97.69
1252.00	 97.66
1253.00	 97.63
1254.00	 97.59
1255.00	 97.56
1256.00	 97.51
1257.00	 97.46
1258.00	 97.40
1259.00	 97.35
1260.00	 97.30
1261.00	 97.27
1262.00	 97.25
1263.00	 97.25
1264.00	 97.27
1265.00	 97.30
1266.00	 97.34
1267.00	 97.39
1268.00	 97.44
1269.00	 97.49
1270.00	 97.53
1271.00	 97.57
1272.00	 97.61
1273.00	 97.64
1274.00	 97.66
1275.00	 97.67
1276.00	 97.68
1277.00	 97.69
1278.00	 97.69
1279.00	 97.70
1280.00	 97.71
1281.00	 97.71
1282.00	 97.71
1283.00	 97.70
1284.00	 97.69
1285.00	 97.69
1286.00	 97.68
1287.00	 97.68
1288.00	 97.68
1289.00	 97.67
1290.00	 97.66
1291.00	 97.65
1292.00	 97.64
1293.00	 97.63
1294.00	 97.62
1295.00	 97.61
1296.00	 97.60
1297.00	 97.58
1298.00	 97.58
1299.00	 97.58
1300.00	 97.58
1301.00	 97.57
1302.00	 97.57
1303.00	 97.58
1304.00	 97.58
1305.00	 97.57
1306.00	 97.58
1307.00	 97.58
1308.00	 97.58
1309.00	 97.58
1310.00	 97.59
1311.00	 97.60
1312.00	 97.61
1313.00	 97.62
1314.00	 97.64
1315.00	 97.66
1316.00	 97.68
1317.00	 97.69
1318.00	 97.71
1319.00	 97.72
1320.00	 97.73
1321.00	 97.75
1322.00	 97.77
1323.00	 97.79
1324.00	 97.80
1325.00	 97.81
1326.00	 97.81
1327.00	 97.81
1328.00	 97.82
1329.00	 97.82
1330.00	 97.82
1331.00	 97.83
1332.00	 97.83
1333.00	 97.83
1334.00	 97.84
1335.00	 97.83
1336.00	 97.82
1337.00	 97.79
1338.00	 97.76
1339.00	 97.73
1340.00	 97.69
1341.00	 97.67
1342.00	 97.65
1343.00	 97.64
1344.00	 97.63
1345.00	 97.61
1346.00	 97.58
1347.00	 97.54
1348.00	 97.51
1349.00	 97.48
1350.00	 97.46
1351.00	 97.45
1352.00	 97.45
1353.00	 97.45
1354.00	 97.45
1355.00	 97.45
1356.00	 97.46
1357.00	 97.47
1358.00	 97.47
1359.00	 97.47
1360.00	 97.45
1361.00	 97.42
1362.00	 97.38
1363.00	 97.35
1364.00	 97.32
1365.00	 97.28
1366.00	 97.25
1367.00	 97.23
1368.00	 97.23
1369.00	 97.23
1370.00	 97.25
1371.00	 97.29
1372.00	 97.34
1373.00	 97.39
1374.00	 97.44
1375.00	 97.49
1376.00	 97.52
1377.00	 97.53
1378.00	 97.54
1379.00	 97.57
1380.00	 97.61
1381.00	 97.65
1382.00	 97.70
1383.00	 97.74
1384.00	 97.77
1385.00	 97.80
1386.00	 97.81
1387.00	 97.83
1388.00	 97.83
1389.00	 97.83
1390.00	 97.83
1391.00	 97.83
1392.00	 97.83
1393.00	 97.82
1394.00	 97.82
1395.00	 97.82
1396.00	 97.82
1397.00	 97.81
1398.00	 97.80
1399.00	 97.79
1400.00	 97.79
1401.00	 97.78
1402.00	 97.77
1403.00	 97.77
1404.00	 97.76
1405.00	 97.75
1406.00	 97.73
1407.00	 97.72
1408.00	 97.71
1409.00	 97.69
1410.00	 97.68
1411.00	 97.68
1412.00	 97.68
1413.00	 97.67
1414.00	 97.65
1415.00	 97.64
1416.00	 97.63
1417.00	 97.61
1418.00	 97.59
1419.00	 97.58
1420.00	 97.55
1421.00	 97.52
1422.00	 97.48
1423.00	 97.45
1424.00	 97.41
1425.00	 97.35
1426.00	 97.29
1427.00	 97.23
1428.00	 97.16
1429.00	 97.07
1430.00	 96.98
1431.00	 96.89
1432.00	 96.80
1433.00	 96.71
1434.00	 96.63
1435.00	 96.56
1436.00	 96.48
1437.00	 96.40
1438.00	 96.34
1439.00	 96.27
1440.00	 96.20
1441.00	 96.13
1442.00	 96.06
1443.00	 96.01
1444.00	 95.95
1445.00	 95.87
1446.00	 95.80
1447.00	 95.73
1448.00	 95.62
1449.00	 95.47
1450.00	 95.31
1451.00	 95.10
1452.00	 94.83
1453.00	 94.49
1454.00	 94.12
1455.00	 93.73
1456.00	 93.25
1457.00	 92.51
1458.00	 91.29
1459.00	 89.60
1460.00	 87.69
1461.00	 85.96
1462.00	 84.85
1463.00	 84.69
1464.00	 85.64
1465.00	 87.32
1466.00	 88.80
1467.00	 89.47
1468.00	 89.50
1469.00	 89.17
1470.00	 88.52
1471.00	 87.53
1472.00	 86.52
1473.00	 86.46
1474.00	 87.92
1475.00	 90.29
1476.00	 92.71
1477.00	 94.70
1478.00	 96.01
1479.00	 96.72
1480.00	 97.10
1481.00	 97.36
1482.00	 97.54
1483.00	 97.66
1484.00	 97.75
1485.00	 97.82
1486.00	 97.87
1487.00	 97.89
1488.00	 97.91
1489.00	 97.94
1490.00	 97.97
1491.00	 97.99
1492.00	 98.01
1493.00	 98.05
1494.00	 98.07
1495.00	 98.08
1496.00	 98.09
1497.00	 98.11
1498.00	 98.13
1499.00	 98.13
1500.00	 98.13
1501.00	 98.15
1502.00	 98.17
1503.00	 98.18
1504.00	 98.19
1505.00	 98.21
1506.00	 98.22
1507.00	 98.20
1508.00	 98.19
1509.00	 98.21
1510.00	 98.21
1511.00	 98.20
1512.00	 98.20
1513.00	 98.21
1514.00	 98.22
1515.00	 98.22
1516.00	 98.22
1517.00	 98.22
1518.00	 98.22
1519.00	 98.22
1520.00	 98.22
1521.00	 98.23
1522.00	 98.24
1523.00	 98.23
1524.00	 98.23
1525.00	 98.23
1526.00	 98.23
1527.00	 98.21
1528.00	 98.19
1529.00	 98.19
1530.00	 98.19
1531.00	 98.19
1532.00	 98.19
1533.00	 98.19
1534.00	 98.18
1535.00	 98.17
1536.00	 98.16
1537.00	 98.17
1538.00	 98.17
1539.00	 98.15
1540.00	 98.12
1541.00	 98.10
1542.00	 98.10
1543.00	 98.10
1544.00	 98.10
1545.00	 98.11
1546.00	 98.12
1547.00	 98.12
1548.00	 98.12
1549.00	 98.12
1550.00	 98.12
1551.00	 98.12
1552.00	 98.13
1553.00	 98.14
1554.00	 98.14
1555.00	 98.13
1556.00	 98.12
1557.00	 98.13
1558.00	 98.13
1559.00	 98.12
1560.00	 98.13
1561.00	 98.12
1562.00	 98.11
1563.00	 98.11
1564.00	 98.11
1565.00	 98.11
1566.00	 98.11
1567.00	 98.11
1568.00	 98.10
1569.00	 98.09
1570.00	 98.08
1571.00	 98.08
1572.00	 98.07
1573.00	 98.07
1574.00	 98.06
1575.00	 98.05
1576.00	 98.04
1577.00	 98.02
1578.00	 98.01
1579.00	 98.00
1580.00	 98.00
1581.00	 97.99
1582.00	 97.99
1583.00	 97.98
1584.00	 97.97
1585.00	 97.96
1586.00	 97.95
1587.00	 97.94
1588.00	 97.94
1589.00	 97.94
1590.00	 97.94
1591.00	 97.94
1592.00	 97.93
1593.00	 97.93
1594.00	 97.94
1595.00	 97.94
1596.00	 97.94
1597.00	 97.94
1598.00	 97.94
1599.00	 97.94
1600.00	 97.95
1601.00	 97.96
1602.00	 97.96
1603.00	 97.96
1604.00	 97.96
1605.00	 97.96
1606.00	 97.96
1607.00	 97.96
1608.00	 97.95
1609.00	 97.95
1610.00	 97.95
1611.00	 97.96
1612.00	 97.96
1613.00	 97.97
1614.00	 97.97
1615.00	 97.97
1616.00	 97.97
1617.00	 97.97
1618.00	 97.96
1619.00	 97.96
1620.00	 97.95
1621.00	 97.94
1622.00	 97.94
1623.00	 97.94
1624.00	 97.94
1625.00	 97.95
1626.00	 97.96
1627.00	 97.95
1628.00	 97.94
1629.00	 97.93
1630.00	 97.93
1631.00	 97.92
1632.00	 97.91
1633.00	 97.91
1634.00	 97.91
1635.00	 97.91
1636.00	 97.92
1637.00	 97.93
1638.00	 97.93
1639.00	 97.93
1640.00	 97.92
1641.00	 97.92
1642.00	 97.92
1643.00	 97.92
1644.00	 97.92
1645.00	 97.92
1646.00	 97.92
1647.00	 97.92
1648.00	 97.92
1649.00	 97.92
1650.00	 97.91
1651.00	 97.91
1652.00	 97.90
1653.00	 97.90
1654.00	 97.93
1655.00	 97.94
1656.00	 97.93
1657.00	 97.94
1658.00	 97.94
1659.00	 97.94
1660.00	 97.94
1661.00	 97.94
1662.00	 97.94
1663.00	 97.95
1664.00	 97.97
1665.00	 97.98
1666.00	 97.99
1667.00	 98.00
1668.00	 98.01
1669.00	 98.02
1670.00	 98.04
1671.00	 98.06
1672.00	 98.07
1673.00	 98.08
1674.00	 98.09
1675.00	 98.09
1676.00	 98.11
1677.00	 98.13
1678.00	 98.14
1679.00	 98.15
1680.00	 98.16
1681.00	 98.18
1682.00	 98.20
1683.00	 98.21
1684.00	 98.22
1685.00	 98.24
1686.00	 98.24
1687.00	 98.24
1688.00	 98.25
1689.00	 98.26
1690.00	 98.27
1691.00	 98.28
1692.00	 98.29
1693.00	 98.30
1694.00	 98.32
1695.00	 98.32
1696.00	 98.30
1697.00	 98.29
1698.00	 98.29
1699.00	 98.30
1700.00	 98.30
1701.00	 98.31
1702.00	 98.32
1703.00	 98.33
1704.00	 98.33
1705.00	 98.33
1706.00	 98.32
1707.00	 98.32
1708.00	 98.31
1709.00	 98.30
1710.00	 98.30
1711.00	 98.30
1712.00	 98.30
1713.00	 98.30
1714.00	 98.30
1715.00	 98.29
1716.00	 98.27
1717.00	 98.26
1718.00	 98.28
1719.00	 98.29
1720.00	 98.30
1721.00	 98.30
1722.00	 98.30
1723.00	 98.30
1724.00	 98.29
1725.00	 98.28
1726.00	 98.28
1727.00	 98.28
1728.00	 98.27
1729.00	 98.27
1730.00	 98.26
1731.00	 98.26
1732.00	 98.25
1733.00	 98.25
1734.00	 98.25
1735.00	 98.25
1736.00	 98.24
1737.00	 98.24
1738.00	 98.24
1739.00	 98.23
1740.00	 98.23
1741.00	 98.24
1742.00	 98.26
1743.00	 98.28
1744.00	 98.30
1745.00	 98.32
1746.00	 98.34
1747.00	 98.36
1748.00	 98.39
1749.00	 98.41
1750.00	 98.43
1751.00	 98.44
1752.00	 98.46
1753.00	 98.49
1754.00	 98.52
1755.00	 98.55
1756.00	 98.58
1757.00	 98.61
1758.00	 98.63
1759.00	 98.64
1760.00	 98.65
1761.00	 98.66
1762.00	 98.67
1763.00	 98.67
1764.00	 98.68
1765.00	 98.69
1766.00	 98.71
1767.00	 98.71
1768.00	 98.72
1769.00	 98.72
1770.00	 98.72
1771.00	 98.73
1772.00	 98.73
1773.00	 98.74
1774.00	 98.75
1775.00	 98.75
1776.00	 98.76
1777.00	 98.76
1778.00	 98.76
1779.00	 98.76
1780.00	 98.76
1781.00	 98.75
1782.00	 98.75
1783.00	 98.75
1784.00	 98.75
1785.00	 98.75
1786.00	 98.74
1787.00	 98.74
1788.00	 98.74
1789.00	 98.75
1790.00	 98.76
1791.00	 98.76
1792.00	 98.75
1793.00	 98.75
1794.00	 98.76
1795.00	 98.76
1796.00	 98.77
1797.00	 98.77
1798.00	 98.77
1799.00	 98.78
1800.00	 98.79
1801.00	 98.80
1802.00	 98.79
1803.00	 98.79
1804.00	 98.79
1805.00	 98.80
1806.00	 98.82
1807.00	 98.82
1808.00	 98.82
1809.00	 98.81
1810.00	 98.81
1811.00	 98.81
1812.00	 98.81
1813.00	 98.81
1814.00	 98.81
1815.00	 98.82
1816.00	 98.82
1817.00	 98.83
1818.00	 98.83
1819.00	 98.82
1820.00	 98.81
1821.00	 98.80
1822.00	 98.80
1823.00	 98.80
1824.00	 98.81
1825.00	 98.82
1826.00	 98.84
1827.00	 98.85
1828.00	 98.86
1829.00	 98.86
1830.00	 98.84
1831.00	 98.83
1832.00	 98.82
1833.00	 98.83
1834.00	 98.84
1835.00	 98.85
1836.00	 98.86
1837.00	 98.87
1838.00	 98.87
1839.00	 98.88
1840.00	 98.88
1841.00	 98.88
1842.00	 98.89
1843.00	 98.88
1844.00	 98.87
1845.00	 98.86
1846.00	 98.85
1847.00	 98.84
1848.00	 98.84
1849.00	 98.83
1850.00	 98.83
1851.00	 98.83
1852.00	 98.84
1853.00	 98.86
1854.00	 98.87
1855.00	 98.87
1856.00	 98.88
1857.00	 98.89
1858.00	 98.89
1859.00	 98.89
1860.00	 98.88
1861.00	 98.88
1862.00	 98.89
1863.00	 98.90
1864.00	 98.91
1865.00	 98.92
1866.00	 98.91
1867.00	 98.89
1868.00	 98.86
1869.00	 98.84
1870.00	 98.83
1871.00	 98.82
1872.00	 98.82
1873.00	 98.83
1874.00	 98.83
1875.00	 98.84
1876.00	 98.84
1877.00	 98.85
1878.00	 98.86
1879.00	 98.86
1880.00	 98.86
1881.00	 98.87
1882.00	 98.87
1883.00	 98.86
1884.00	 98.85
1885.00	 98.85
1886.00	 98.86
1887.00	 98.86
1888.00	 98.86
1889.00	 98.85
1890.00	 98.83
1891.00	 98.81
1892.00	 98.80
1893.00	 98.79
1894.00	 98.80
1895.00	 98.80
1896.00	 98.80
1897.00	 98.79
1898.00	 98.77
1899.00	 98.76
1900.00	 98.77
1901.00	 98.78
1902.00	 98.79
1903.00	 98.79
1904.00	 98.81
1905.00	 98.83
1906.00	 98.86
1907.00	 98.88
1908.00	 98.88
1909.00	 98.88
1910.00	 98.87
1911.00	 98.86
1912.00	 98.85
1913.00	 98.86
1914.00	 98.86
1915.00	 98.87
1916.00	 98.86
1917.00	 98.86
1918.00	 98.85
1919.00	 98.85
1920.00	 98.87
1921.00	 98.90
1922.00	 98.92
1923.00	 98.92
1924.00	 98.91
1925.00	 98.91
1926.00	 98.91
1927.00	 98.91
1928.00	 98.91
1929.00	 98.91
1930.00	 98.90
1931.00	 98.90
1932.00	 98.90
1933.00	 98.91
1934.00	 98.91
1935.00	 98.90
1936.00	 98.89
1937.00	 98.90
1938.00	 98.90
1939.00	 98.89
1940.00	 98.88
1941.00	 98.89
1942.00	 98.91
1943.00	 98.94
1944.00	 98.97
1945.00	 98.99
1946.00	 99.00
1947.00	 98.99
1948.00	 98.98
1949.00	 98.98
1950.00	 98.98
1951.00	 98.98
1952.00	 98.97
1953.00	 98.94
1954.00	 98.91
1955.00	 98.89
1956.00	 98.91
1957.00	 98.96
1958.00	 99.02
1959.00	 99.04
1960.00	 99.02
1961.00	 98.99
1962.00	 98.95
1963.00	 98.90
1964.00	 98.86
1965.00	 98.85
1966.00	 98.87
1967.00	 98.92
1968.00	 98.99
1969.00	 99.04
1970.00	 99.04
1971.00	 99.01
1972.00	 98.99
1973.00	 99.02
1974.00	 99.07
1975.00	 99.09
1976.00	 99.08
1977.00	 99.05
1978.00	 99.00
1979.00	 98.93
1980.00	 98.86
1981.00	 98.82
1982.00	 98.81
1983.00	 98.81
1984.00	 98.81
1985.00	 98.82
1986.00	 98.84
1987.00	 98.86
1988.00	 98.88
1989.00	 98.90
1990.00	 98.92
1991.00	 98.92
1992.00	 98.89
1993.00	 98.83
1994.00	 98.76
1995.00	 98.70
1996.00	 98.69
1997.00	 98.72
1998.00	 98.76
1999.00	 98.79
2000.00	 98.81
2001.00	 98.84
2002.00	 98.88
2003.00	 98.91
2004.00	 98.91
2005.00	 98.90
2006.00	 98.89
2007.00	 98.90
2008.00	 98.92
2009.00	 98.93
2010.00	 98.89
2011.00	 98.82
2012.00	 98.76
2013.00	 98.76
2014.00	 98.81
2015.00	 98.86
2016.00	 98.89
2017.00	 98.89
2018.00	 98.89
2019.00	 98.91
2020.00	 98.92
2021.00	 98.91
2022.00	 98.88
2023.00	 98.83
2024.00	 98.82
2025.00	 98.83
2026.00	 98.85
2027.00	 98.84
2028.00	 98.82
2029.00	 98.81
2030.00	 98.83
2031.00	 98.87
2032.00	 98.92
2033.00	 98.93
2034.00	 98.90
2035.00	 98.84
2036.00	 98.79
2037.00	 98.78
2038.00	 98.79
2039.00	 98.80
2040.00	 98.79
2041.00	 98.77
2042.00	 98.75
2043.00	 98.71
2044.00	 98.68
2045.00	 98.69
2046.00	 98.73
2047.00	 98.79
2048.00	 98.82
2049.00	 98.79
2050.00	 98.73
2051.00	 98.68
2052.00	 98.68
2053.00	 98.73
2054.00	 98.77
2055.00	 98.78
2056.00	 98.77
2057.00	 98.78
2058.00	 98.80
2059.00	 98.82
2060.00	 98.82
2061.00	 98.83
2062.00	 98.84
2063.00	 98.85
2064.00	 98.85
2065.00	 98.84
2066.00	 98.83
2067.00	 98.82
2068.00	 98.82
2069.00	 98.83
2070.00	 98.83
2071.00	 98.83
2072.00	 98.82
2073.00	 98.82
2074.00	 98.82
2075.00	 98.81
2076.00	 98.79
2077.00	 98.79
2078.00	 98.78
2079.00	 98.79
2080.00	 98.80
2081.00	 98.83
2082.00	 98.86
2083.00	 98.87
2084.00	 98.89
2085.00	 98.89
2086.00	 98.88
2087.00	 98.85
2088.00	 98.82
2089.00	 98.82
2090.00	 98.83
2091.00	 98.85
2092.00	 98.87
2093.00	 98.90
2094.00	 98.92
2095.00	 98.92
2096.00	 98.92
2097.00	 98.91
2098.00	 98.90
2099.00	 98.88
2100.00	 98.88
2101.00	 98.88
2102.00	 98.89
2103.00	 98.88
2104.00	 98.85
2105.00	 98.83
2106.00	 98.83
2107.00	 98.84
2108.00	 98.85
2109.00	 98.86
2110.00	 98.87
2111.00	 98.87
2112.00	 98.87
2113.00	 98.86
2114.00	 98.86
2115.00	 98.86
2116.00	 98.87
2117.00	 98.90
2118.00	 98.94
2119.00	 98.97
2120.00	 98.99
2121.00	 98.99
2122.00	 98.99
2123.00	 98.98
2124.00	 98.98
2125.00	 98.99
2126.00	 98.99
2127.00	 98.99
2128.00	 98.97
2129.00	 98.97
2130.00	 98.98
2131.00	 99.01
2132.00	 99.05
2133.00	 99.09
2134.00	 99.11
2135.00	 99.11
2136.00	 99.08
2137.00	 99.06
2138.00	 99.04
2139.00	 99.04
2140.00	 99.05
2141.00	 99.08
2142.00	 99.10
2143.00	 99.08
2144.00	 99.04
2145.00	 99.01
2146.00	 99.01
2147.00	 99.02
2148.00	 99.00
2149.00	 98.99
2150.00	 98.99
2151.00	 99.04
2152.00	 99.10
2153.00	 99.15
2154.00	 99.17
2155.00	 99.16
2156.00	 99.15
2157.00	 99.15
2158.00	 99.12
2159.00	 99.04
2160.00	 98.91
2161.00	 98.80
2162.00	 98.76
2163.00	 98.77
2164.00	 98.80
2165.00	 98.83
2166.00	 98.84
2167.00	 98.81
2168.00	 98.76
2169.00	 98.74
2170.00	 98.75
2171.00	 98.79
2172.00	 98.84
2173.00	 98.90
2174.00	 98.96
2175.00	 98.99
2176.00	 98.98
2177.00	 98.92
2178.00	 98.84
2179.00	 98.78
2180.00	 98.75
2181.00	 98.75
2182.00	 98.77
2183.00	 98.77
2184.00	 98.75
2185.00	 98.74
2186.00	 98.74
2187.00	 98.74
2188.00	 98.76
2189.00	 98.76
2190.00	 98.74
2191.00	 98.71
2192.00	 98.69
2193.00	 98.70
2194.00	 98.74
2195.00	 98.77
2196.00	 98.79
2197.00	 98.79
2198.00	 98.79
2199.00	 98.78
2200.00	 98.78
2201.00	 98.78
2202.00	 98.77
2203.00	 98.77
2204.00	 98.77
2205.00	 98.78
2206.00	 98.77
2207.00	 98.76
2208.00	 98.76
2209.00	 98.78
2210.00	 98.81
2211.00	 98.85
2212.00	 98.87
2213.00	 98.88
2214.00	 98.88
2215.00	 98.86
2216.00	 98.84
2217.00	 98.83
2218.00	 98.82
2219.00	 98.82
2220.00	 98.83
2221.00	 98.83
2222.00	 98.84
2223.00	 98.83
2224.00	 98.82
2225.00	 98.81
2226.00	 98.80
2227.00	 98.80
2228.00	 98.80
2229.00	 98.81
2230.00	 98.80
2231.00	 98.78
2232.00	 98.75
2233.00	 98.74
2234.00	 98.73
2235.00	 98.74
2236.00	 98.74
2237.00	 98.75
2238.00	 98.76
2239.00	 98.75
2240.00	 98.75
2241.00	 98.74
2242.00	 98.74
2243.00	 98.74
2244.00	 98.74
2245.00	 98.74
2246.00	 98.74
2247.00	 98.73
2248.00	 98.73
2249.00	 98.73
2250.00	 98.74
2251.00	 98.73
2252.00	 98.72
2253.00	 98.71
2254.00	 98.70
2255.00	 98.72
2256.00	 98.73
2257.00	 98.75
2258.00	 98.74
2259.00	 98.72
2260.00	 98.71
2261.00	 98.72
2262.00	 98.72
2263.00	 98.72
2264.00	 98.72
2265.00	 98.72
2266.00	 98.72
2267.00	 98.72
2268.00	 98.71
2269.00	 98.70
2270.00	 98.70
2271.00	 98.68
2272.00	 98.67
2273.00	 98.66
2274.00	 98.65
2275.00	 98.63
2276.00	 98.61
2277.00	 98.60
2278.00	 98.60
2279.00	 98.62
2280.00	 98.63
2281.00	 98.63
2282.00	 98.63
2283.00	 98.62
2284.00	 98.61
2285.00	 98.60
2286.00	 98.60
2287.00	 98.60
2288.00	 98.60
2289.00	 98.60
2290.00	 98.60
2291.00	 98.60
2292.00	 98.60
2293.00	 98.60
2294.00	 98.60
2295.00	 98.60
2296.00	 98.61
2297.00	 98.61
2298.00	 98.62
2299.00	 98.63
2300.00	 98.64
2301.00	 98.64
2302.00	 98.64
2303.00	 98.63
2304.00	 98.62
2305.00	 98.61
2306.00	 98.60
2307.00	 98.60
2308.00	 98.60
2309.00	 98.61
2310.00	 98.61
2311.00	 98.60
2312.00	 98.60
2313.00	 98.58
2314.00	 98.57
2315.00	 98.56
2316.00	 98.55
2317.00	 98.54
2318.00	 98.53
2319.00	 98.52
2320.00	 98.52
2321.00	 98.51
2322.00	 98.49
2323.00	 98.47
2324.00	 98.44
2325.00	 98.42
2326.00	 98.43
2327.00	 98.45
2328.00	 98.49
2329.00	 98.53
2330.00	 98.56
2331.00	 98.58
2332.00	 98.60
2333.00	 98.61
2334.00	 98.60
2335.00	 98.60
2336.00	 98.59
2337.00	 98.59
2338.00	 98.60
2339.00	 98.60
2340.00	 98.61
2341.00	 98.61
2342.00	 98.61
2343.00	 98.61
2344.00	 98.63
2345.00	 98.66
2346.00	 98.69
2347.00	 98.70
2348.00	 98.69
2349.00	 98.67
2350.00	 98.67
2351.00	 98.67
2352.00	 98.68
2353.00	 98.68
2354.00	 98.68
2355.00	 98.68
2356.00	 98.68
2357.00	 98.69
2358.00	 98.69
2359.00	 98.68
2360.00	 98.69
2361.00	 98.70
2362.00	 98.72
2363.00	 98.73
2364.00	 98.74
2365.00	 98.74
2366.00	 98.74
2367.00	 98.74
2368.00	 98.75
2369.00	 98.76
2370.00	 98.77
2371.00	 98.77
2372.00	 98.76
2373.00	 98.76
2374.00	 98.77
2375.00	 98.79
2376.00	 98.81
2377.00	 98.82
2378.00	 98.82
2379.00	 98.82
2380.00	 98.81
2381.00	 98.80
2382.00	 98.79
2383.00	 98.78
2384.00	 98.78
2385.00	 98.78
2386.00	 98.78
2387.00	 98.78
2388.00	 98.78
2389.00	 98.77
2390.00	 98.76
2391.00	 98.76
2392.00	 98.76
2393.00	 98.77
2394.00	 98.79
2395.00	 98.80
2396.00	 98.80
2397.00	 98.80
2398.00	 98.79
2399.00	 98.78
2400.00	 98.77
2401.00	 98.77
2402.00	 98.78
2403.00	 98.78
2404.00	 98.78
2405.00	 98.77
2406.00	 98.76
2407.00	 98.76
2408.00	 98.75
2409.00	 98.75
2410.00	 98.75
2411.00	 98.75
2412.00	 98.73
2413.00	 98.72
2414.00	 98.71
2415.00	 98.71
2416.00	 98.72
2417.00	 98.73
2418.00	 98.73
2419.00	 98.73
2420.00	 98.72
2421.00	 98.72
2422.00	 98.73
2423.00	 98.74
2424.00	 98.74
2425.00	 98.74
2426.00	 98.73
2427.00	 98.73
2428.00	 98.72
2429.00	 98.72
2430.00	 98.73
2431.00	 98.73
2432.00	 98.74
2433.00	 98.74
2434.00	 98.74
2435.00	 98.74
2436.00	 98.74
2437.00	 98.73
2438.00	 98.73
2439.00	 98.73
2440.00	 98.74
2441.00	 98.75
2442.00	 98.76
2443.00	 98.76
2444.00	 98.75
2445.00	 98.75
2446.00	 98.74
2447.00	 98.73
2448.00	 98.73
2449.00	 98.73
2450.00	 98.73
2451.00	 98.72
2452.00	 98.72
2453.00	 98.73
2454.00	 98.72
2455.00	 98.71
2456.00	 98.70
2457.00	 98.69
2458.00	 98.69
2459.00	 98.70
2460.00	 98.70
2461.00	 98.70
2462.00	 98.69
2463.00	 98.69
2464.00	 98.69
2465.00	 98.70
2466.00	 98.70
2467.00	 98.70
2468.00	 98.69
2469.00	 98.69
2470.00	 98.68
2471.00	 98.68
2472.00	 98.67
2473.00	 98.67
2474.00	 98.67
2475.00	 98.68
2476.00	 98.70
2477.00	 98.70
2478.00	 98.70
2479.00	 98.68
2480.00	 98.67
2481.00	 98.66
2482.00	 98.66
2483.00	 98.67
2484.00	 98.68
2485.00	 98.70
2486.00	 98.71
2487.00	 98.71
2488.00	 98.70
2489.00	 98.69
2490.00	 98.67
2491.00	 98.66
2492.00	 98.65
2493.00	 98.64
2494.00	 98.64
2495.00	 98.64
2496.00	 98.65
2497.00	 98.65
2498.00	 98.65
2499.00	 98.65
2500.00	 98.65
2501.00	 98.65
2502.00	 98.66
2503.00	 98.66
2504.00	 98.66
2505.00	 98.66
2506.00	 98.65
2507.00	 98.64
2508.00	 98.62
2509.00	 98.62
2510.00	 98.62
2511.00	 98.63
2512.00	 98.63
2513.00	 98.63
2514.00	 98.62
2515.00	 98.62
2516.00	 98.61
2517.00	 98.61
2518.00	 98.60
2519.00	 98.59
2520.00	 98.60
2521.00	 98.60
2522.00	 98.60
2523.00	 98.59
2524.00	 98.58
2525.00	 98.58
2526.00	 98.58
2527.00	 98.59
2528.00	 98.60
2529.00	 98.61
2530.00	 98.61
2531.00	 98.61
2532.00	 98.60
2533.00	 98.59
2534.00	 98.58
2535.00	 98.58
2536.00	 98.57
2537.00	 98.57
2538.00	 98.57
2539.00	 98.57
2540.00	 98.58
2541.00	 98.58
2542.00	 98.57
2543.00	 98.55
2544.00	 98.54
2545.00	 98.53
2546.00	 98.53
2547.00	 98.51
2548.00	 98.50
2549.00	 98.49
2550.00	 98.48
2551.00	 98.48
2552.00	 98.48
2553.00	 98.48
2554.00	 98.48
2555.00	 98.47
2556.00	 98.47
2557.00	 98.46
2558.00	 98.46
2559.00	 98.47
2560.00	 98.47
2561.00	 98.47
2562.00	 98.47
2563.00	 98.46
2564.00	 98.46
2565.00	 98.46
2566.00	 98.46
2567.00	 98.45
2568.00	 98.45
2569.00	 98.44
2570.00	 98.42
2571.00	 98.41
2572.00	 98.40
2573.00	 98.39
2574.00	 98.38
2575.00	 98.38
2576.00	 98.38
2577.00	 98.39
2578.00	 98.40
2579.00	 98.41
2580.00	 98.41
2581.00	 98.40
2582.00	 98.39
2583.00	 98.38
2584.00	 98.36
2585.00	 98.35
2586.00	 98.34
2587.00	 98.33
2588.00	 98.32
2589.00	 98.32
2590.00	 98.32
2591.00	 98.31
2592.00	 98.30
2593.00	 98.30
2594.00	 98.29
2595.00	 98.28
2596.00	 98.27
2597.00	 98.27
2598.00	 98.26
2599.00	 98.25
2600.00	 98.25
2601.00	 98.24
2602.00	 98.24
2603.00	 98.23
2604.00	 98.22
2605.00	 98.22
2606.00	 98.21
2607.00	 98.21
2608.00	 98.20
2609.00	 98.19
2610.00	 98.18
2611.00	 98.16
2612.00	 98.15
2613.00	 98.14
2614.00	 98.13
2615.00	 98.12
2616.00	 98.12
2617.00	 98.11
2618.00	 98.11
2619.00	 98.09
2620.00	 98.08
2621.00	 98.06
2622.00	 98.05
2623.00	 98.03
2624.00	 98.02
2625.00	 98.01
2626.00	 98.00
2627.00	 97.99
2628.00	 97.99
2629.00	 97.98
2630.00	 97.96
2631.00	 97.94
2632.00	 97.92
2633.00	 97.91
2634.00	 97.91
2635.00	 97.91
2636.00	 97.91
2637.00	 97.91
2638.00	 97.91
2639.00	 97.91
2640.00	 97.91
2641.00	 97.91
2642.00	 97.91
2643.00	 97.91
2644.00	 97.91
2645.00	 97.92
2646.00	 97.92
2647.00	 97.92
2648.00	 97.91
2649.00	 97.91
2650.00	 97.90
2651.00	 97.90
2652.00	 97.89
2653.00	 97.88
2654.00	 97.87
2655.00	 97.87
2656.00	 97.87
2657.00	 97.87
2658.00	 97.87
2659.00	 97.86
2660.00	 97.86
2661.00	 97.86
2662.00	 97.87
2663.00	 97.87
2664.00	 97.88
2665.00	 97.89
2666.00	 97.90
2667.00	 97.90
2668.00	 97.91
2669.00	 97.92
2670.00	 97.92
2671.00	 97.93
2672.00	 97.93
2673.00	 97.93
2674.00	 97.94
2675.00	 97.94
2676.00	 97.95
2677.00	 97.96
2678.00	 97.96
2679.00	 97.97
2680.00	 97.97
2681.00	 97.97
2682.00	 97.97
2683.00	 97.97
2684.00	 97.97
2685.00	 97.97
2686.00	 97.97
2687.00	 97.97
2688.00	 97.97
2689.00	 97.97
2690.00	 97.97
2691.00	 97.96
2692.00	 97.96
2693.00	 97.96
2694.00	 97.95
2695.00	 97.94
2696.00	 97.94
2697.00	 97.94
2698.00	 97.93
2699.00	 97.92
2700.00	 97.92
2701.00	 97.91
2702.00	 97.90
2703.00	 97.89
2704.00	 97.89
2705.00	 97.88
2706.00	 97.87
2707.00	 97.86
2708.00	 97.86
2709.00	 97.85
2710.00	 97.84
2711.00	 97.83
2712.00	 97.82
2713.00	 97.81
2714.00	 97.80
2715.00	 97.79
2716.00	 97.79
2717.00	 97.78
2718.00	 97.77
2719.00	 97.76
2720.00	 97.75
2721.00	 97.74
2722.00	 97.73
2723.00	 97.72
2724.00	 97.71
2725.00	 97.69
2726.00	 97.69
2727.00	 97.68
2728.00	 97.66
2729.00	 97.65
2730.00	 97.64
2731.00	 97.62
2732.00	 97.61
2733.00	 97.61
2734.00	 97.60
2735.00	 97.59
2736.00	 97.58
2737.00	 97.57
2738.00	 97.55
2739.00	 97.55
2740.00	 97.54
2741.00	 97.53
2742.00	 97.53
2743.00	 97.52
2744.00	 97.51
2745.00	 97.50
2746.00	 97.50
2747.00	 97.49
2748.00	 97.48
2749.00	 97.47
2750.00	 97.46
2751.00	 97.44
2752.00	 97.43
2753.00	 97.42
2754.00	 97.41
2755.00	 97.40
2756.00	 97.39
2757.00	 97.37
2758.00	 97.35
2759.00	 97.33
2760.00	 97.30
2761.00	 97.28
2762.00	 97.26
2763.00	 97.24
2764.00	 97.22
2765.00	 97.20
2766.00	 97.18
2767.00	 97.15
2768.00	 97.13
2769.00	 97.10
2770.00	 97.07
2771.00	 97.04
2772.00	 97.01
2773.00	 96.99
2774.00	 96.96
2775.00	 96.93
2776.00	 96.89
2777.00	 96.86
2778.00	 96.83
2779.00	 96.79
2780.00	 96.75
2781.00	 96.71
2782.00	 96.66
2783.00	 96.62
2784.00	 96.57
2785.00	 96.53
2786.00	 96.48
2787.00	 96.43
2788.00	 96.38
2789.00	 96.32
2790.00	 96.26
2791.00	 96.20
2792.00	 96.14
2793.00	 96.08
2794.00	 96.02
2795.00	 95.97
2796.00	 95.92
2797.00	 95.86
2798.00	 95.79
2799.00	 95.73
2800.00	 95.66
2801.00	 95.59
2802.00	 95.51
2803.00	 95.44
2804.00	 95.36
2805.00	 95.28
2806.00	 95.20
2807.00	 95.12
2808.00	 95.04
2809.00	 94.96
2810.00	 94.86
2811.00	 94.76
2812.00	 94.65
2813.00	 94.54
2814.00	 94.41
2815.00	 94.29
2816.00	 94.15
2817.00	 94.01
2818.00	 93.86
2819.00	 93.70
2820.00	 93.54
2821.00	 93.36
2822.00	 93.17
2823.00	 92.96
2824.00	 92.74
2825.00	 92.49
2826.00	 92.22
2827.00	 91.92
2828.00	 91.59
2829.00	 91.23
2830.00	 90.83
2831.00	 90.39
2832.00	 89.89
2833.00	 89.33
2834.00	 88.70
2835.00	 87.97
2836.00	 87.13
2837.00	 86.16
2838.00	 85.03
2839.00	 83.72
2840.00	 82.20
2841.00	 80.44
2842.00	 78.45
2843.00	 76.26
2844.00	 73.97
2845.00	 71.75
2846.00	 69.85
2847.00	 68.56
2848.00	 68.13
2849.00	 68.68
2850.00	 70.14
2851.00	 72.26
2852.00	 74.73
2853.00	 77.25
2854.00	 79.64
2855.00	 81.80
2856.00	 83.70
2857.00	 85.36
2858.00	 86.80
2859.00	 88.02
2860.00	 89.07
2861.00	 89.94
2862.00	 90.66
2863.00	 91.24
2864.00	 91.69
2865.00	 92.04
2866.00	 92.29
2867.00	 92.46
2868.00	 92.56
2869.00	 92.59
2870.00	 92.55
2871.00	 92.44
2872.00	 92.28
2873.00	 92.06
2874.00	 91.79
2875.00	 91.47
2876.00	 91.10
2877.00	 90.67
2878.00	 90.21
2879.00	 89.72
2880.00	 89.21
2881.00	 88.70
2882.00	 88.18
2883.00	 87.66
2884.00	 87.14
2885.00	 86.63
2886.00	 86.12
2887.00	 85.62
2888.00	 85.13
2889.00	 84.64
2890.00	 84.17
2891.00	 83.71
2892.00	 83.26
2893.00	 82.82
2894.00	 82.39
2895.00	 81.96
2896.00	 81.54
2897.00	 81.13
2898.00	 80.71
2899.00	 80.28
2900.00	 79.84
2901.00	 79.37
2902.00	 78.86
2903.00	 78.29
2904.00	 77.66
2905.00	 76.94
2906.00	 76.12
2907.00	 75.19
2908.00	 74.13
2909.00	 72.95
2910.00	 71.65
2911.00	 70.28
2912.00	 68.93
2913.00	 67.70
2914.00	 66.76
2915.00	 66.24
2916.00	 66.26
2917.00	 66.83
2918.00	 67.90
2919.00	 69.33
2920.00	 70.99
2921.00	 72.73
2922.00	 74.48
2923.00	 76.18
2924.00	 77.79
2925.00	 79.31
2926.00	 80.72
2927.00	 82.03
2928.00	 83.25
2929.00	 84.38
2930.00	 85.43
2931.00	 86.41
2932.00	 87.34
2933.00	 88.21
2934.00	 89.02
2935.00	 89.78
2936.00	 90.49
2937.00	 91.15
2938.00	 91.76
2939.00	 92.34
2940.00	 92.87
2941.00	 93.36
2942.00	 93.81
2943.00	 94.22
2944.00	 94.59
2945.00	 94.92
2946.00	 95.21
2947.00	 95.46
2948.00	 95.68
2949.00	 95.86
2950.00	 96.02
2951.00	 96.16
2952.00	 96.28
2953.00	 96.39
2954.00	 96.48
2955.00	 96.56
2956.00	 96.63
2957.00	 96.70
2958.00	 96.78
2959.00	 96.85
2960.00	 96.93
2961.00	 97.01
2962.00	 97.09
2963.00	 97.16
2964.00	 97.23
2965.00	 97.29
2966.00	 97.36
2967.00	 97.43
2968.00	 97.50
2969.00	 97.57
2970.00	 97.64
2971.00	 97.70
2972.00	 97.76
2973.00	 97.82
2974.00	 97.87
2975.00	 97.93
2976.00	 97.98
2977.00	 98.03
2978.00	 98.06
2979.00	 98.09
2980.00	 98.11
2981.00	 98.13
2982.00	 98.15
2983.00	 98.17
2984.00	 98.19
2985.00	 98.21
2986.00	 98.23
2987.00	 98.25
2988.00	 98.27
2989.00	 98.29
2990.00	 98.31
2991.00	 98.33
2992.00	 98.34
2993.00	 98.35
2994.00	 98.36
2995.00	 98.36
2996.00	 98.36
2997.00	 98.37
2998.00	 98.37
2999.00	 98.38
3000.00	 98.38
3001.00	 98.39
3002.00	 98.39
3003.00	 98.40
3004.00	 98.41
3005.00	 98.41
3006.00	 98.41
3007.00	 98.42
3008.00	 98.42
3009.00	 98.43
3010.00	 98.45
3011.00	 98.46
3012.00	 98.46
3013.00	 98.46
3014.00	 98.46
3015.00	 98.46
3016.00	 98.46
3017.00	 98.47
3018.00	 98.47
3019.00	 98.47
3020.00	 98.48
3021.00	 98.48
3022.00	 98.49
3023.00	 98.49
3024.00	 98.49
3025.00	 98.48
3026.00	 98.48
3027.00	 98.48
3028.00	 98.48
3029.00	 98.49
3030.00	 98.49
3031.00	 98.50
3032.00	 98.50
3033.00	 98.50
3034.00	 98.50
3035.00	 98.49
3036.00	 98.49
3037.00	 98.50
3038.00	 98.50
3039.00	 98.51
3040.00	 98.52
3041.00	 98.53
3042.00	 98.54
3043.00	 98.55
3044.00	 98.56
3045.00	 98.56
3046.00	 98.56
3047.00	 98.55
3048.00	 98.55
3049.00	 98.55
3050.00	 98.55
3051.00	 98.56
3052.00	 98.56
3053.00	 98.57
3054.00	 98.58
3055.00	 98.58
3056.00	 98.58
3057.00	 98.57
3058.00	 98.56
3059.00	 98.56
3060.00	 98.56
3061.00	 98.56
3062.00	 98.57
3063.00	 98.58
3064.00	 98.59
3065.00	 98.60
3066.00	 98.61
3067.00	 98.62
3068.00	 98.63
3069.00	 98.63
3070.00	 98.63
3071.00	 98.63
3072.00	 98.62
3073.00	 98.62
3074.00	 98.61
3075.00	 98.61
3076.00	 98.61
3077.00	 98.60
3078.00	 98.60
3079.00	 98.60
3080.00	 98.60
3081.00	 98.60
3082.00	 98.60
3083.00	 98.60
3084.00	 98.61
3085.00	 98.61
3086.00	 98.61
3087.00	 98.62
3088.00	 98.61
3089.00	 98.61
3090.00	 98.61
3091.00	 98.61
3092.00	 98.60
3093.00	 98.60
3094.00	 98.61
3095.00	 98.62
3096.00	 98.63
3097.00	 98.64
3098.00	 98.64
3099.00	 98.65
3100.00	 98.65
3101.00	 98.65
3102.00	 98.65
3103.00	 98.65
3104.00	 98.65
3105.00	 98.65
3106.00	 98.66
3107.00	 98.66
3108.00	 98.66
3109.00	 98.66
3110.00	 98.66
3111.00	 98.66
3112.00	 98.66
3113.00	 98.66
3114.00	 98.66
3115.00	 98.66
3116.00	 98.66
3117.00	 98.67
3118.00	 98.67
3119.00	 98.67
3120.00	 98.68
3121.00	 98.68
3122.00	 98.68
3123.00	 98.68
3124.00	 98.68
3125.00	 98.68
3126.00	 98.68
3127.00	 98.68
3128.00	 98.68
3129.00	 98.67
3130.00	 98.66
3131.00	 98.66
3132.00	 98.67
3133.00	 98.67
3134.00	 98.68
3135.00	 98.68
3136.00	 98.68
3137.00	 98.68
3138.00	 98.67
3139.00	 98.67
3140.00	 98.66
3141.00	 98.66
3142.00	 98.65
3143.00	 98.65
3144.00	 98.65
3145.00	 98.65
3146.00	 98.65
3147.00	 98.65
3148.00	 98.65
3149.00	 98.65
3150.00	 98.65
3151.00	 98.65
3152.00	 98.66
3153.00	 98.66
3154.00	 98.65
3155.00	 98.64
3156.00	 98.64
3157.00	 98.64
3158.00	 98.64
3159.00	 98.64
3160.00	 98.64
3161.00	 98.62
3162.00	 98.61
3163.00	 98.59
3164.00	 98.58
3165.00	 98.58
3166.00	 98.58
3167.00	 98.60
3168.00	 98.60
3169.00	 98.61
3170.00	 98.60
3171.00	 98.59
3172.00	 98.59
3173.00	 98.58
3174.00	 98.58
3175.00	 98.58
3176.00	 98.57
3177.00	 98.57
3178.00	 98.57
3179.00	 98.57
3180.00	 98.57
3181.00	 98.57
3182.00	 98.57
3183.00	 98.56
3184.00	 98.55
3185.00	 98.55
3186.00	 98.54
3187.00	 98.54
3188.00	 98.54
3189.00	 98.54
3190.00	 98.54
3191.00	 98.54
3192.00	 98.53
3193.00	 98.53
3194.00	 98.53
3195.00	 98.54
3196.00	 98.55
3197.00	 98.55
3198.00	 98.55
3199.00	 98.54
3200.00	 98.53
3201.00	 98.53
3202.00	 98.52
3203.00	 98.52
3204.00	 98.52
3205.00	 98.52
3206.00	 98.52
3207.00	 98.52
3208.00	 98.52
3209.00	 98.52
3210.00	 98.51
3211.00	 98.50
3212.00	 98.49
3213.00	 98.49
3214.00	 98.50
3215.00	 98.50
3216.00	 98.50
3217.00	 98.50
3218.00	 98.50
3219.00	 98.50
3220.00	 98.50
3221.00	 98.50
3222.00	 98.50
3223.00	 98.50
3224.00	 98.49
3225.00	 98.49
3226.00	 98.50
3227.00	 98.50
3228.00	 98.50
3229.00	 98.50
3230.00	 98.50
3231.00	 98.50
3232.00	 98.49
3233.00	 98.50
3234.00	 98.49
3235.00	 98.49
3236.00	 98.49
3237.00	 98.48
3238.00	 98.49
3239.00	 98.49
3240.00	 98.49
3241.00	 98.48
3242.00	 98.48
3243.00	 98.47
3244.00	 98.46
3245.00	 98.46
3246.00	 98.45
3247.00	 98.45
3248.00	 98.45
3249.00	 98.45
3250.00	 98.45
3251.00	 98.45
3252.00	 98.45
3253.00	 98.45
3254.00	 98.45
3255.00	 98.45
3256.00	 98.45
3257.00	 98.45
3258.00	 98.45
3259.00	 98.44
3260.00	 98.44
3261.00	 98.43
3262.00	 98.43
3263.00	 98.42
3264.00	 98.42
3265.00	 98.42
3266.00	 98.43
3267.00	 98.44
3268.00	 98.44
3269.00	 98.44
3270.00	 98.44
3271.00	 98.43
3272.00	 98.43
3273.00	 98.42
3274.00	 98.42
3275.00	 98.42
3276.00	 98.42
3277.00	 98.42
3278.00	 98.42
3279.00	 98.42
3280.00	 98.41
3281.00	 98.40
3282.00	 98.39
3283.00	 98.39
3284.00	 98.38
3285.00	 98.39
3286.00	 98.39
3287.00	 98.39
3288.00	 98.39
3289.00	 98.39
3290.00	 98.39
3291.00	 98.39
3292.00	 98.39
3293.00	 98.40
3294.00	 98.40
3295.00	 98.40
3296.00	 98.40
3297.00	 98.40
3298.00	 98.39
3299.00	 98.39
3300.00	 98.38
3301.00	 98.38
3302.00	 98.38
3303.00	 98.38
3304.00	 98.38
3305.00	 98.39
3306.00	 98.39
3307.00	 98.39
3308.00	 98.38
3309.00	 98.37
3310.00	 98.36
3311.00	 98.36
3312.00	 98.36
3313.00	 98.36
3314.00	 98.36
3315.00	 98.36
3316.00	 98.36
3317.00	 98.35
3318.00	 98.34
3319.00	 98.33
3320.00	 98.33
3321.00	 98.33
3322.00	 98.34
3323.00	 98.35
3324.00	 98.35
3325.00	 98.36
3326.00	 98.36
3327.00	 98.35
3328.00	 98.35
3329.00	 98.34
3330.00	 98.34
3331.00	 98.34
3332.00	 98.34
3333.00	 98.34
3334.00	 98.34
3335.00	 98.34
3336.00	 98.34
3337.00	 98.33
3338.00	 98.33
3339.00	 98.32
3340.00	 98.32
3341.00	 98.31
3342.00	 98.31
3343.00	 98.31
3344.00	 98.31
3345.00	 98.31
3346.00	 98.31
3347.00	 98.32
3348.00	 98.32
3349.00	 98.32
3350.00	 98.32
3351.00	 98.32
3352.00	 98.31
3353.00	 98.30
3354.00	 98.29
3355.00	 98.29
3356.00	 98.28
3357.00	 98.29
3358.00	 98.29
3359.00	 98.30
3360.00	 98.30
3361.00	 98.30
3362.00	 98.30
3363.00	 98.30
3364.00	 98.30
3365.00	 98.30
3366.00	 98.31
3367.00	 98.32
3368.00	 98.32
3369.00	 98.33
3370.00	 98.32
3371.00	 98.32
3372.00	 98.31
3373.00	 98.31
3374.00	 98.31
3375.00	 98.32
3376.00	 98.32
3377.00	 98.32
3378.00	 98.32
3379.00	 98.32
3380.00	 98.32
3381.00	 98.32
3382.00	 98.32
3383.00	 98.31
3384.00	 98.30
3385.00	 98.30
3386.00	 98.30
3387.00	 98.31
3388.00	 98.32
3389.00	 98.33
3390.00	 98.33
3391.00	 98.34
3392.00	 98.34
3393.00	 98.34
3394.00	 98.34
3395.00	 98.34
3396.00	 98.34
3397.00	 98.34
3398.00	 98.36
3399.00	 98.37
3400.00	 98.38
3401.00	 98.38
3402.00	 98.38
3403.00	 98.37
3404.00	 98.36
3405.00	 98.35
3406.00	 98.35
3407.00	 98.35
3408.00	 98.36
3409.00	 98.36
3410.00	 98.36
3411.00	 98.36
3412.00	 98.35
3413.00	 98.36
3414.00	 98.36
3415.00	 98.36
3416.00	 98.36
3417.00	 98.35
3418.00	 98.35
3419.00	 98.35
3420.00	 98.35
3421.00	 98.34
3422.00	 98.34
3423.00	 98.34
3424.00	 98.35
3425.00	 98.37
3426.00	 98.38
3427.00	 98.38
3428.00	 98.38
3429.00	 98.38
3430.00	 98.37
3431.00	 98.37
3432.00	 98.38
3433.00	 98.38
3434.00	 98.39
3435.00	 98.39
3436.00	 98.40
3437.00	 98.40
3438.00	 98.39
3439.00	 98.39
3440.00	 98.38
3441.00	 98.38
3442.00	 98.38
3443.00	 98.38
3444.00	 98.38
3445.00	 98.38
3446.00	 98.38
3447.00	 98.38
3448.00	 98.38
3449.00	 98.39
3450.00	 98.39
3451.00	 98.39
3452.00	 98.40
3453.00	 98.40
3454.00	 98.40
3455.00	 98.40
3456.00	 98.40
3457.00	 98.41
3458.00	 98.41
3459.00	 98.41
3460.00	 98.41
3461.00	 98.41
3462.00	 98.41
3463.00	 98.41
3464.00	 98.42
3465.00	 98.43
3466.00	 98.44
3467.00	 98.44
3468.00	 98.44
3469.00	 98.44
3470.00	 98.43
3471.00	 98.43
3472.00	 98.44
3473.00	 98.44
3474.00	 98.44
3475.00	 98.45
3476.00	 98.45
3477.00	 98.46
3478.00	 98.47
3479.00	 98.48
3480.00	 98.48
3481.00	 98.48
3482.00	 98.48
3483.00	 98.48
3484.00	 98.48
3485.00	 98.48
3486.00	 98.48
3487.00	 98.48
3488.00	 98.48
3489.00	 98.48
3490.00	 98.49
3491.00	 98.49
3492.00	 98.50
3493.00	 98.50
3494.00	 98.51
3495.00	 98.51
3496.00	 98.52
3497.00	 98.52
3498.00	 98.52
3499.00	 98.51
3500.00	 98.51
3501.00	 98.51
3502.00	 98.51
3503.00	 98.51
3504.00	 98.51
3505.00	 98.51
3506.00	 98.51
3507.00	 98.52
3508.00	 98.52
3509.00	 98.52
3510.00	 98.53
3511.00	 98.54
3512.00	 98.55
3513.00	 98.55
3514.00	 98.55
3515.00	 98.54
3516.00	 98.54
3517.00	 98.54
3518.00	 98.55
3519.00	 98.56
3520.00	 98.56
3521.00	 98.57
3522.00	 98.57
3523.00	 98.57
3524.00	 98.57
3525.00	 98.58
3526.00	 98.58
3527.00	 98.58
3528.00	 98.59
3529.00	 98.59
3530.00	 98.59
3531.00	 98.59
3532.00	 98.59
3533.00	 98.60
3534.00	 98.60
3535.00	 98.60
3536.00	 98.60
3537.00	 98.60
3538.00	 98.60
3539.00	 98.61
3540.00	 98.61
3541.00	 98.61
3542.00	 98.60
3543.00	 98.59
3544.00	 98.59
3545.00	 98.59
3546.00	 98.60
3547.00	 98.62
3548.00	 98.63
3549.00	 98.64
3550.00	 98.64
3551.00	 98.64
3552.00	 98.64
3553.00	 98.63
3554.00	 98.64
3555.00	 98.64
3556.00	 98.65
3557.00	 98.65
3558.00	 98.66
3559.00	 98.65
3560.00	 98.65
3561.00	 98.65
3562.00	 98.65
3563.00	 98.66
3564.00	 98.66
3565.00	 98.66
3566.00	 98.66
3567.00	 98.66
3568.00	 98.66
3569.00	 98.67
3570.00	 98.68
3571.00	 98.68
3572.00	 98.68
3573.00	 98.68
3574.00	 98.68
3575.00	 98.68
3576.00	 98.68
3577.00	 98.68
3578.00	 98.68
3579.00	 98.68
3580.00	 98.68
3581.00	 98.69
3582.00	 98.69
3583.00	 98.70
3584.00	 98.71
3585.00	 98.71
3586.00	 98.71
3587.00	 98.70
3588.00	 98.69
3589.00	 98.69
3590.00	 98.69
3591.00	 98.70
3592.00	 98.70
3593.00	 98.70
3594.00	 98.69
3595.00	 98.69
3596.00	 98.69
3597.00	 98.69
3598.00	 98.68
3599.00	 98.67
3600.00	 98.66
3601.00	 98.64
3602.00	 98.63
3603.00	 98.63
3604.00	 98.63
3605.00	 98.65
3606.00	 98.66
3607.00	 98.67
3608.00	 98.68
3609.00	 98.68
3610.00	 98.68
3611.00	 98.68
3612.00	 98.68
3613.00	 98.68
3614.00	 98.67
3615.00	 98.68
3616.00	 98.69
3617.00	 98.71
3618.00	 98.72
3619.00	 98.72
3620.00	 98.72
3621.00	 98.73
3622.00	 98.74
3623.00	 98.76
3624.00	 98.76
3625.00	 98.77
3626.00	 98.78
3627.00	 98.79
3628.00	 98.78
3629.00	 98.76
3630.00	 98.75
3631.00	 98.75
3632.00	 98.76
3633.00	 98.76
3634.00	 98.76
3635.00	 98.75
3636.00	 98.75
3637.00	 98.76
3638.00	 98.76
3639.00	 98.76
3640.00	 98.76
3641.00	 98.75
3642.00	 98.75
3643.00	 98.74
3644.00	 98.75
3645.00	 98.76
3646.00	 98.77
3647.00	 98.77
3648.00	 98.76
3649.00	 98.75
3650.00	 98.78
3651.00	 98.80
3652.00	 98.82
3653.00	 98.82
3654.00	 98.81
3655.00	 98.81
3656.00	 98.80
3657.00	 98.80
3658.00	 98.80
3659.00	 98.80
3660.00	 98.81
3661.00	 98.81
3662.00	 98.80
3663.00	 98.79
3664.00	 98.78
3665.00	 98.78
3666.00	 98.78
3667.00	 98.78
3668.00	 98.79
3669.00	 98.79
3670.00	 98.78
3671.00	 98.78
3672.00	 98.78
3673.00	 98.80
3674.00	 98.82
3675.00	 98.82
3676.00	 98.83
3677.00	 98.83
3678.00	 98.84
3679.00	 98.83
3680.00	 98.83
3681.00	 98.82
3682.00	 98.81
3683.00	 98.80
3684.00	 98.79
3685.00	 98.79
3686.00	 98.80
3687.00	 98.81
3688.00	 98.82
3689.00	 98.82
3690.00	 98.82
3691.00	 98.82
3692.00	 98.82
3693.00	 98.81
3694.00	 98.81
3695.00	 98.80
3696.00	 98.81
3697.00	 98.81
3698.00	 98.81
3699.00	 98.81
3700.00	 98.81
3701.00	 98.82
3702.00	 98.82
3703.00	 98.82
3704.00	 98.82
3705.00	 98.82
3706.00	 98.82
3707.00	 98.82
3708.00	 98.82
3709.00	 98.83
3710.00	 98.83
3711.00	 98.83
3712.00	 98.83
3713.00	 98.83
3714.00	 98.82
3715.00	 98.81
3716.00	 98.80
3717.00	 98.80
3718.00	 98.78
3719.00	 98.78
3720.00	 98.77
3721.00	 98.78
3722.00	 98.78
3723.00	 98.78
3724.00	 98.79
3725.00	 98.79
3726.00	 98.80
3727.00	 98.79
3728.00	 98.79
3729.00	 98.80
3730.00	 98.81
3731.00	 98.83
3732.00	 98.83
3733.00	 98.83
3734.00	 98.81
3735.00	 98.79
3736.00	 98.77
3737.00	 98.76
3738.00	 98.76
3739.00	 98.76
3740.00	 98.76
3741.00	 98.76
3742.00	 98.78
3743.00	 98.80
3744.00	 98.81
3745.00	 98.79
3746.00	 98.77
3747.00	 98.76
3748.00	 98.76
3749.00	 98.75
3750.00	 98.75
3751.00	 98.75
3752.00	 98.76
3753.00	 98.77
3754.00	 98.79
3755.00	 98.80
3756.00	 98.81
3757.00	 98.81
3758.00	 98.80
3759.00	 98.78
3760.00	 98.77
3761.00	 98.77
3762.00	 98.77
3763.00	 98.77
3764.00	 98.78
3765.00	 98.77
3766.00	 98.77
3767.00	 98.77
3768.00	 98.77
3769.00	 98.78
3770.00	 98.78
3771.00	 98.78
3772.00	 98.78
3773.00	 98.78
3774.00	 98.79
3775.00	 98.79
3776.00	 98.79
3777.00	 98.79
3778.00	 98.80
3779.00	 98.80
3780.00	 98.80
3781.00	 98.79
3782.00	 98.79
3783.00	 98.78
3784.00	 98.77
3785.00	 98.76
3786.00	 98.75
3787.00	 98.75
3788.00	 98.76
3789.00	 98.77
3790.00	 98.77
3791.00	 98.77
3792.00	 98.77
3793.00	 98.77
3794.00	 98.77
3795.00	 98.77
3796.00	 98.76
3797.00	 98.76
3798.00	 98.75
3799.00	 98.76
3800.00	 98.77
3801.00	 98.77
3802.00	 98.77
3803.00	 98.76
3804.00	 98.77
3805.00	 98.77
3806.00	 98.78
3807.00	 98.78
3808.00	 98.78
3809.00	 98.78
3810.00	 98.78
3811.00	 98.77
3812.00	 98.76
3813.00	 98.75
3814.00	 98.75
3815.00	 98.74
3816.00	 98.72
3817.00	 98.71
3818.00	 98.72
3819.00	 98.75
3820.00	 98.77
3821.00	 98.78
3822.00	 98.78
3823.00	 98.78
3824.00	 98.77
3825.00	 98.77
3826.00	 98.77
3827.00	 98.76
3828.00	 98.76
3829.00	 98.76
3830.00	 98.76
3831.00	 98.75
3832.00	 98.75
3833.00	 98.75
3834.00	 98.75
3835.00	 98.75
3836.00	 98.76
3837.00	 98.76
3838.00	 98.76
3839.00	 98.76
3840.00	 98.76
3841.00	 98.76
3842.00	 98.76
3843.00	 98.76
3844.00	 98.76
3845.00	 98.76
3846.00	 98.76
3847.00	 98.76
3848.00	 98.76
3849.00	 98.76
3850.00	 98.75
3851.00	 98.75
3852.00	 98.76
3853.00	 98.75
3854.00	 98.75
3855.00	 98.75
3856.00	 98.76
3857.00	 98.76
3858.00	 98.76
3859.00	 98.76
3860.00	 98.76
3861.00	 98.76
3862.00	 98.76
3863.00	 98.75
3864.00	 98.75
3865.00	 98.74
3866.00	 98.73
3867.00	 98.73
3868.00	 98.73
3869.00	 98.73
3870.00	 98.71
3871.00	 98.71
3872.00	 98.72
3873.00	 98.74
3874.00	 98.75
3875.00	 98.75
3876.00	 98.75
3877.00	 98.76
3878.00	 98.77
3879.00	 98.77
3880.00	 98.76
3881.00	 98.73
3882.00	 98.71
3883.00	 98.70
3884.00	 98.69
3885.00	 98.69
3886.00	 98.68
3887.00	 98.69
3888.00	 98.72
3889.00	 98.75
3890.00	 98.77
3891.00	 98.79
3892.00	 98.81
3893.00	 98.81
3894.00	 98.82
3895.00	 98.81
3896.00	 98.80
3897.00	 98.78
3898.00	 98.76
3899.00	 98.73
3900.00	 98.70
3901.00	 98.68
3902.00	 98.68
3903.00	 98.69
3904.00	 98.72
3905.00	 98.73
3906.00	 98.74
3907.00	 98.73
3908.00	 98.72
3909.00	 98.71
3910.00	 98.71
3911.00	 98.73
3912.00	 98.75
3913.00	 98.77
3914.00	 98.78
3915.00	 98.78
3916.00	 98.78
3917.00	 98.77
3918.00	 98.76
3919.00	 98.75
3920.00	 98.74
3921.00	 98.72
3922.00	 98.70
3923.00	 98.69
3924.00	 98.68
3925.00	 98.68
3926.00	 98.69
3927.00	 98.71
3928.00	 98.73
3929.00	 98.75
3930.00	 98.75
3931.00	 98.74
3932.00	 98.73
3933.00	 98.72
3934.00	 98.72
3935.00	 98.72
3936.00	 98.73
3937.00	 98.73
3938.00	 98.74
3939.00	 98.74
3940.00	 98.74
3941.00	 98.75
3942.00	 98.74
3943.00	 98.73
3944.00	 98.72
3945.00	 98.71
3946.00	 98.71
3947.00	 98.70
3948.00	 98.70
3949.00	 98.70
3950.00	 98.71
3951.00	 98.72
3952.00	 98.73
3953.00	 98.74
3954.00	 98.74
3955.00	 98.75
3956.00	 98.75
3957.00	 98.76
3958.00	 98.77
3959.00	 98.77
3960.00	 98.76
3961.00	 98.75
3962.00	 98.74
3963.00	 98.73
3964.00	 98.72
3965.00	 98.72
3966.00	 98.72
3967.00	 98.72
3968.00	 98.71
3969.00	 98.70
3970.00	 98.70
3971.00	 98.71
3972.00	 98.72
3973.00	 98.73
3974.00	 98.75
3975.00	 98.76
3976.00	 98.76
3977.00	 98.75
3978.00	 98.74
3979.00	 98.73
3980.00	 98.72
3981.00	 98.72
3982.00	 98.72
3983.00	 98.72
3984.00	 98.73
3985.00	 98.74
3986.00	 98.74
3987.00	 98.73
3988.00	 98.73
3989.00	 98.72
3990.00	 98.71
3991.00	 98.71
3992.00	 98.71
3993.00	 98.71
3994.00	 98.72
3995.00	 98.72
3996.00	 98.73
3997.00	 98.73
3998.00	 98.73
3999.00	 98.72
4000.00	 98.72
DESCRIPTION=Sample 007 By Administrator Date Thursday, February 15 2018
USER=Administrator
TIME=thu feb 15 17:17:23 2018 AUS Eastern Daylight Time (GMT+11:00)
INSTRUMENT=SPECTRUM TWO,NIOS2 MAIN 00.02.0079 15-DECEMBER-2014 11:35:32
JSTOP=105820
NOOFSCANS=4
DETECTOR=LITA03
SOURCE=MIR
BEAMSPLITTER=OPTKBR
RESOLUTION=4
APODIZATION=STRONG
PHASE=SPECTRUM
MODE=RATIO
OPDVEL=0.2
DEVICE=UNIVERSAL ATR
FFT=DOUBLE
DIRECTION=COMBINED
